Folder: E6Lab2

File: PVC_Mon1_Late (1).csv
"Time", "Load (lb)", "Position (in)", "AxialStrain (in)", "TransverseStrain (in)", "Auxiliary ()", "Control Out (V)", "Stress (psi)"
0.0, 1.95527, 0.0, NaN, NaN, NaN, -0.0177013, 9.761912
0.01, 1.95527, 0.0, NaN, NaN, NaN, -0.0177013, 9.761912
0.02, 1.95527, 0.0, NaN, NaN, NaN, -0.007935055, 9.761912
0.03, 1.95527, 0.0, NaN, NaN, NaN, 6.103888E-4, 9.761912
0.04, 1.95527, 0.0, NaN, NaN, NaN, 0.009155832, 9.761912
0.05, 1.95527, 0.0, NaN, NaN, NaN, 0.0189221, 9.761912
0.06, 0.0, 0.0, NaN, NaN, NaN, 0.0189221, 0.0
0.07, 1.95527, 0.0, NaN, NaN, NaN, 0.0274675, 9.761912
0.08, 1.95527, 0.0, NaN, NaN, NaN, 0.0372337, 9.761912
0.09, 1.95527, 0.0, NaN, NaN, NaN, 0.04577916, 9.761912
0.1, 1.95527, 0.0, NaN, NaN, NaN, 0.0555454, 9.761912
0.11, 1.95527, 0.0, NaN, NaN, NaN, 0.0555454, 9.761912
0.12, 1.95527, 0.0, NaN, NaN, NaN, 0.0640908, 9.761912
0.13, 0.0, 0.0, NaN, NaN, NaN, 0.07385705, 0.0
0.14, 1.95527, 0.0, NaN, NaN, NaN, 0.08362327, 9.761912
0.15, 1.95527, 0.0, NaN, NaN, NaN, 0.09216871, 9.761912
0.16, 1.95527, 0.0, NaN, NaN, NaN, 0.09216871, 9.761912
0.17, 1.95527, 0.0, NaN, NaN, NaN, 0.101935, 9.761912
0.18, 0.0, 0.0, NaN, NaN, NaN, 0.11048, 0.0
0.19, 1.95527, 0.0, NaN, NaN, NaN, 0.1202466, 9.761912
0.2, 1.95527, 0.0, NaN, NaN, NaN, 0.128792, 9.761912
0.21, 0.0, 0.0, NaN, NaN, NaN, 0.128792, 0.0
0.22, 1.95527, 0.0, NaN, NaN, NaN, 0.138558, 9.761912
0.23, 0.0, 0.0, NaN, NaN, NaN, 0.148324, 0.0
0.24, 1.95527, 0.0, NaN, NaN, NaN, 0.15687, 9.761912
1.2, 21.508, 0.00141667, NaN, NaN, NaN, 0.711103, 107.381
2.16, 62.56869, 0.00425, NaN, NaN, NaN, 1.09931, 312.3812
3.12, 131.003, 0.008083333, NaN, NaN, NaN, 1.386193, 654.0481
4.08, 218.99, 0.01275, NaN, NaN, NaN, 1.5803, 1093.33
5.04, 324.575, 0.0179167, NaN, NaN, NaN, 1.71824, 1620.48
6, 441.8914, 0.0234167, NaN, NaN, NaN, 1.81957, 2206.19
6.96, 565.0735, 0.02925, NaN, NaN, NaN, 1.87572, 2821.19
7.92, 690.251, 0.03525, NaN, NaN, NaN, 1.92211, 3446.16
8.88, 817.4098, 0.04125, NaN, NaN, NaN, 1.968504, 4081.01
9.84, 936.743, 0.04741667, NaN, NaN, NaN, 1.99536, 4676.8
10.8, 1054.12, 0.0536667, NaN, NaN, NaN, 2.01367, 5262.813
11.76, 1163.67, 0.0600833, NaN, NaN, NaN, 2.00513, 5809.763
12.72, 1257.57, 0.06633334, NaN, NaN, NaN, 2.023439, 6278.58
13.68, 1331.91, 0.07258333, NaN, NaN, NaN, 2.04175, 6649.72
14.64, 1388.64, 0.07908334, NaN, NaN, NaN, 2.03321, 6932.965
15.6, 1416.03, 0.0854167, NaN, NaN, NaN, 2.04175, 7069.7
16.56, 1431.68, 0.09175, NaN, NaN, NaN, 2.04175, 7147.84
17.52, 1435.6, 0.09825, NaN, NaN, NaN, 2.03321, 7167.372
18.48, 1431.68, 0.104583, NaN, NaN, NaN, 2.04175, 7147.84
19.44, 1427.77, 0.110917, NaN, NaN, NaN, 2.05152, 7128.304
20.4, 1421.9, 0.117417, NaN, NaN, NaN, 2.04175, 7099
21.36, 1416.03, 0.12375, NaN, NaN, NaN, 2.04175, 7069.7
22.32, 1410.164, 0.130167, NaN, NaN, NaN, 2.04175, 7040.4
23.28, 1406.25, 0.136583, NaN, NaN, NaN, 2.04175, 7020.867
24.24, 1402.34, 0.143, NaN, NaN, NaN, 2.04175, 7001.33
25.2, 1392.56, 0.149417, NaN, NaN, NaN, 2.04175, 6952.5
26.16, 1388.64, 0.15575, NaN, NaN, NaN, 2.04175, 6932.965
27.12, 1384.73, 0.16225, NaN, NaN, NaN, 2.03321, 6913.43
28.08, 1376.91, 0.168583, NaN, NaN, NaN, 2.04175, 6874.36
29.04, 1372.99, 0.174917, NaN, NaN, NaN, 2.05152, 6854.83
30, 1369.082, 0.181417, NaN, NaN, NaN, 2.04175, 6835.295
30.96, 1363.21, 0.18775, NaN, NaN, NaN, 2.04175, 6805.994
31.92, 1357.34, 0.194083, NaN, NaN, NaN, 2.05152, 6776.693
32.88, 1351.48, 0.200583, NaN, NaN, NaN, 2.04175, 6747.39
33.84, 1347.56, 0.207, NaN, NaN, NaN, 2.04175, 6727.86
34.8, 1341.694, 0.213417, NaN, NaN, NaN, 2.04175, 6698.557
35.76, 1337.78, 0.21975, NaN, NaN, NaN, 2.04175, 6679.024
36.72, 1333.87, 0.22625, NaN, NaN, NaN, 2.03321, 6659.49
37.68, 1326.04, 0.232583, NaN, NaN, NaN, 2.04175, 6620.42
38.64, 1324.09, 0.238917, NaN, NaN, NaN, 2.05152, 6610.655
39.6, 1318.22, 0.245417, NaN, NaN, NaN, 2.04175, 6581.354
40.56, 1314.306, 0.25175, NaN, NaN, NaN, 2.04175, 6561.82
41.52, 1310.39, 0.258083, NaN, NaN, NaN, 2.05152, 6542.286
42.48, 1304.52, 0.264583, NaN, NaN, NaN, 2.04175, 6512.99
43.44, 1300.612, 0.271083, NaN, NaN, NaN, 2.04175, 6493.45
44.4, 1294.74, 0.277417, NaN, NaN, NaN, 2.04175, 6464.15
45.36, 1290.83, 0.28375, NaN, NaN, NaN, 2.04175, 6444.616
46.32, 1288.87, 0.29025, NaN, NaN, NaN, 2.03321, 6434.849
47.28, 1283.01, 0.296583, NaN, NaN, NaN, 2.04175, 6405.55
48.24, 1279.09, 0.302917, NaN, NaN, NaN, 2.05152, 6386.01
49.2, 1273.22, 0.309417, NaN, NaN, NaN, 2.04175, 6356.714
50.16, 1269.31, 0.31575, NaN, NaN, NaN, 2.04175, 6337.18
51.12, 1263.44, 0.322083, NaN, NaN, NaN, 2.05152, 6307.879
52.08, 1259.53, 0.328583, NaN, NaN, NaN, 2.04175, 6288.345
53.04, 1255.62, 0.335, NaN, NaN, NaN, 2.04175, 6268.81
54, 1249.75, 0.341417, NaN, NaN, NaN, 2.04175, 6239.51
54.96, 1245.836, 0.34775, NaN, NaN, NaN, 2.04175, 6219.976
55.92, 1239.97, 0.35425, NaN, NaN, NaN, 2.03321, 6190.675
56.88, 1236.05, 0.360583, NaN, NaN, NaN, 2.04175, 6171.141
57.84, 1232.14, 0.3669167, NaN, NaN, NaN, 2.05152, 6151.61
58.8, 1226.27, 0.3734167, NaN, NaN, NaN, 2.04175, 6122.31
59.76, 1220.4, 0.37975, NaN, NaN, NaN, 2.04175, 6093.006
60.72, 1214.54, 0.3861667, NaN, NaN, NaN, 2.04175, 6063.705
61.68, 1210.62, 0.392583, NaN, NaN, NaN, 2.04175, 6044.17
62.64, 1204.75, 0.399083, NaN, NaN, NaN, 2.03321, 6014.87
63.6, 1200.84, 0.405417, NaN, NaN, NaN, 2.04175, 5995.336
64.56, 1194.97, 0.411833, NaN, NaN, NaN, 2.03321, 5966.03
65.52, 1189.1, 0.41825, NaN, NaN, NaN, 2.03321, 5936.734
66.48, 1183.235, 0.424583, NaN, NaN, NaN, 2.04175, 5907.433
67.44, 1177.37, 0.431, NaN, NaN, NaN, 2.04175, 5878.132
68.4, 1171.5, 0.437417, NaN, NaN, NaN, 2.04175, 5848.831
69.36, 1165.63, 0.44375, NaN, NaN, NaN, 2.04175, 5819.53
70.32, 1159.76, 0.45025, NaN, NaN, NaN, 2.03321, 5790.23
71.28, 1153.89, 0.4566667, NaN, NaN, NaN, 2.03321, 5760.928
72.24, 1146.07, 0.463083, NaN, NaN, NaN, 2.03321, 5721.861
73.2, 1142.15, 0.469417, NaN, NaN, NaN, 2.04175, 5702.327
74.16, 1138.24, 0.475833, NaN, NaN, NaN, 2.03321, 5682.793
75.12, 1132.37, 0.48225, NaN, NaN, NaN, 2.03321, 5653.49
76.08, 1124.55, 0.488583, NaN, NaN, NaN, 2.04175, 5614.424
77.04, 1120.63, 0.495, NaN, NaN, NaN, 2.04175, 5594.89
78, 1114.765, 0.5014167, NaN, NaN, NaN, 2.04175, 5565.589
78.96, 1108.9, 0.50775, NaN, NaN, NaN, 2.04175, 5536.29
79.92, 1104.98, 0.51425, NaN, NaN, NaN, 2.03321, 5516.75
80.88, 1099.11, 0.5205834, NaN, NaN, NaN, 2.04175, 5487.453
81.84, 1095.2, 0.5269167, NaN, NaN, NaN, 2.05152, 5467.92
82.8, 1091.29, 0.5334167, NaN, NaN, NaN, 2.04175, 5448.39
83.76, 1087.38, 0.53975, NaN, NaN, NaN, 2.04175, 5428.85
84.72, 1083.46, 0.546167, NaN, NaN, NaN, 2.04175, 5409.318
85.68, 1079.552, 0.552583, NaN, NaN, NaN, 2.04175, 5389.784
86.64, 1073.68, 0.559, NaN, NaN, NaN, 2.04175, 5360.483
87.6, 1071.73, 0.5654167, NaN, NaN, NaN, 2.04175, 5350.716
88.56, 1067.81, 0.57175, NaN, NaN, NaN, 2.04175, 5331.18
89.52, 1065.86, 0.578167, NaN, NaN, NaN, 2.04175, 5321.415
90.48, 1061.95, 0.584583, NaN, NaN, NaN, 2.04175, 5301.88
91.44, 1058.03, 0.5909167, NaN, NaN, NaN, 2.05152, 5282.347
92.4, 1058.03, 0.5973334, NaN, NaN, NaN, 2.05152, 5282.347
93.36, 1056.08, 0.60375, NaN, NaN, NaN, 2.04175, 5272.58
94.32, 1052.164, 0.610083, NaN, NaN, NaN, 2.05152, 5253.046
95.28, 1050.21, 0.616583, NaN, NaN, NaN, 2.04175, 5243.28
96.24, 1048.25, 0.623, NaN, NaN, NaN, 2.04175, 5233.512
97.2, 1048.25, 0.6293333, NaN, NaN, NaN, 2.05152, 5233.512
98.16, 1044.34, 0.63575, NaN, NaN, NaN, 2.04175, 5213.98
99.12, 1042.38, 0.64225, NaN, NaN, NaN, 2.03321, 5204.211
100.08, 1040.43, 0.6485833, NaN, NaN, NaN, 2.04175, 5194.44
101.04, 1038.47, 0.6549167, NaN, NaN, NaN, 2.05152, 5184.68
102, 1034.56, 0.6614167, NaN, NaN, NaN, 2.04175, 5165.14
102.96, 1034.56, 0.66775, NaN, NaN, NaN, 2.04175, 5165.14
103.92, 1032.6, 0.674083, NaN, NaN, NaN, 2.05152, 5155.38
104.88, 1030.64, 0.680583, NaN, NaN, NaN, 2.04175, 5145.61
105.84, 1030.64, 0.6869167, NaN, NaN, NaN, 2.05152, 5145.61
106.8, 1028.69, 0.6933334, NaN, NaN, NaN, 2.05152, 5135.843
107.76, 1028.69, 0.69975, NaN, NaN, NaN, 2.04175, 5135.843
108.72, 1026.73, 0.70625, NaN, NaN, NaN, 2.03321, 5126.08
109.68, 1024.78, 0.712583, NaN, NaN, NaN, 2.04175, 5116.31
110.64, 1024.78, 0.718917, NaN, NaN, NaN, 2.05152, 5116.31
111.6, 1022.82, 0.7254167, NaN, NaN, NaN, 2.04175, 5106.54
112.56, 1022.82, 0.7317501, NaN, NaN, NaN, 2.04175, 5106.54
113.52, 1020.86, 0.738083, NaN, NaN, NaN, 2.05152, 5096.775
114.48, 1020.86, 0.744583, NaN, NaN, NaN, 2.04175, 5096.775
115.44, 1020.86, 0.750917, NaN, NaN, NaN, 2.05152, 5096.775
116.4, 1020.86, 0.757333, NaN, NaN, NaN, 2.05152, 5096.775
117.36, 1020.86, 0.76375, NaN, NaN, NaN, 2.04175, 5096.775
118.32, 1018.91, 0.7701667, NaN, NaN, NaN, 2.04175, 5087.008
119.28, 1018.91, 0.7765833, NaN, NaN, NaN, 2.04175, 5087.008
120.24, 1018.91, 0.7829167, NaN, NaN, NaN, 2.05152, 5087.008
121.2, 1016.95, 0.7894167, NaN, NaN, NaN, 2.04175, 5077.24
122.16, 1016.95, 0.79575, NaN, NaN, NaN, 2.04175, 5077.24
123.12, 1016.95, 0.8020834, NaN, NaN, NaN, 2.05152, 5077.24
124.08, 1016.95, 0.8085834, NaN, NaN, NaN, 2.04175, 5077.24
125.04, 1016.95, 0.814917, NaN, NaN, NaN, 2.05152, 5077.24
126, 1014.99, 0.82125, NaN, NaN, NaN, 2.06006, 5067.47
126.96, 1016.95, 0.82775, NaN, NaN, NaN, 2.04175, 5077.24
127.92, 1014.99, 0.8341667, NaN, NaN, NaN, 2.04175, 5067.47
128.88, 1014.99, 0.8405, NaN, NaN, NaN, 2.05152, 5067.47
129.84, 1013.04, 0.8469167, NaN, NaN, NaN, 2.05152, 5057.71
130.8, 1014.99, 0.853417, NaN, NaN, NaN, 2.04175, 5067.47
131.76, 1013.04, 0.85975, NaN, NaN, NaN, 2.04175, 5057.71
132.72, 1014.99, 0.8660834, NaN, NaN, NaN, 2.05152, 5067.47
133.68, 1013.04, 0.8725833, NaN, NaN, NaN, 2.04175, 5057.71
134.64, 1013.04, 0.8789167, NaN, NaN, NaN, 2.05152, 5057.71
135.6, 1011.082, 0.885333, NaN, NaN, NaN, 2.05152, 5047.94
136.56, 1013.04, 0.89175, NaN, NaN, NaN, 2.04175, 5057.71
137.52, 1013.04, 0.8981667, NaN, NaN, NaN, 2.04175, 5057.71
138.48, 1014.99, 0.904583, NaN, NaN, NaN, 2.04175, 5067.47
139.44, 1014.99, 0.910917, NaN, NaN, NaN, 2.05152, 5067.47
140.4, 1014.99, 0.9174167, NaN, NaN, NaN, 2.04175, 5067.47
141.36, 1014.99, 0.92375, NaN, NaN, NaN, 2.04175, 5067.47
142.32, 1014.99, 0.93025, NaN, NaN, NaN, 2.04175, 5067.47
143.28, 1016.95, 0.9365834, NaN, NaN, NaN, 2.04175, 5077.24
144.24, 1014.99, 0.9429167, NaN, NaN, NaN, 2.05152, 5067.47
145.2, 1014.99, 0.9494167, NaN, NaN, NaN, 2.04175, 5067.47
146.16, 1016.95, 0.9558334, NaN, NaN, NaN, 2.04175, 5077.24
147.12, 1014.99, 0.96225, NaN, NaN, NaN, 2.03321, 5067.47
148.08, 1016.95, 0.968583, NaN, NaN, NaN, 2.04175, 5077.24
149.04, 1016.95, 0.975083, NaN, NaN, NaN, 2.03321, 5077.24
150, 1016.95, 0.981417, NaN, NaN, NaN, 2.04175, 5077.24
150.96, 1018.91, 0.98775, NaN, NaN, NaN, 2.04175, 5087.008
151.92, 1016.95, 0.99425, NaN, NaN, NaN, 2.03321, 5077.24
152.88, 1016.95, 1.00058, NaN, NaN, NaN, 2.04175, 5077.24
153.84, 1016.95, 1.00692, NaN, NaN, NaN, 2.05152, 5077.24
154.8, 1018.91, 1.01342, NaN, NaN, NaN, 2.04175, 5087.008
155.76, 1018.91, 1.01983, NaN, NaN, NaN, 2.03321, 5087.008
156.72, 1016.95, 1.02625, NaN, NaN, NaN, 2.03321, 5077.24
157.68, 1018.91, 1.03258, NaN, NaN, NaN, 2.04175, 5087.008
158.64, 1016.95, 1.03908, NaN, NaN, NaN, 2.03321, 5077.24
159.6, 1016.95, 1.04542, NaN, NaN, NaN, 2.04175, 5077.24
160.56, 1013.04, 1.05175, NaN, NaN, NaN, 2.04175, 5057.71
161.52, 1007.17, 1.05825, NaN, NaN, NaN, 2.03321, 5028.406
162.48, 989.563, 1.06458, NaN, NaN, NaN, 2.04175, 4940.5
163.44, 926.962, 1.07092, NaN, NaN, NaN, 2.05152, 4627.96
164.05, -101.674, 1.07508, NaN, NaN, NaN, 2.04175, -507.619